Frequency (Hz)	Level (dB)
15.625000	-72.704247
31.250000	-69.454407
46.875000	-67.153564
62.500000	-65.195984
78.125000	-65.736549
93.750000	-65.408669
109.375000	-63.102673
125.000000	-61.801842
140.625000	-61.882393
156.250000	-60.587067
171.875000	-58.647469
187.500000	-55.482292
203.125000	-51.320583
218.750000	-47.910656
234.375000	-48.264889
250.000000	-51.580345
265.625000	-55.144394
281.250000	-57.462811
296.875000	-58.838139
312.500000	-59.429035
328.125000	-59.479637
343.750000	-59.448154
359.375000	-59.060982
375.000000	-57.953438
390.625000	-56.312176
406.250000	-54.165565
421.875000	-50.636215
437.500000	-46.511299
453.125000	-45.853489
468.750000	-48.680378
484.375000	-52.554142
500.000000	-54.892117
515.625000	-56.648048
531.250000	-57.539986
546.875000	-57.806557
562.500000	-57.798370
578.125000	-57.569412
593.750000	-56.853230
609.375000	-55.730453
625.000000	-53.921124
640.625000	-50.588753
656.250000	-46.530499
671.875000	-44.125740
687.500000	-45.637920
703.125000	-49.465038
718.750000	-52.730633
734.375000	-54.746140
750.000000	-55.923111
765.625000	-56.445438
781.250000	-56.727871
796.875000	-56.370388
812.500000	-55.606289
828.125000	-54.600849
843.750000	-52.853657
859.375000	-49.823456
875.000000	-45.429504
890.625000	-42.387688
906.250000	-43.462238
921.875000	-47.648758
937.500000	-50.977356
953.125000	-52.904354
968.750000	-54.044861
984.375000	-55.084015
1000.000000	-55.338245
1015.625000	-54.953342
1031.250000	-54.536884
1046.875000	-53.428055
1062.500000	-51.768406
1078.125000	-49.113800
1093.750000	-44.445282
1109.375000	-40.366505
1125.000000	-40.043339
1140.625000	-43.973724
1156.250000	-48.586407
1171.875000	-51.299450
1187.500000	-53.050117
1203.125000	-54.130814
1218.750000	-54.523956
1234.375000	-54.326092
1250.000000	-53.576603
1265.625000	-52.657227
1281.250000	-51.220482
1296.875000	-49.148441
1312.500000	-45.462856
1328.125000	-40.993092
1343.750000	-39.355270
1359.375000	-41.959232
1375.000000	-46.293205
1390.625000	-49.223747
1406.250000	-50.770519
1421.875000	-51.877831
1437.500000	-52.412010
1453.125000	-52.537834
1468.750000	-52.208008
1484.375000	-51.321266
1500.000000	-49.765335
1515.625000	-47.740177
1531.250000	-44.435429
1546.875000	-39.987610
1562.500000	-37.412277
1578.125000	-39.093208
1593.750000	-43.189789
1609.375000	-46.543953
1625.000000	-48.616207
1640.625000	-49.770519
1656.250000	-50.350510
1671.875000	-50.689190
1687.500000	-50.284561
1703.125000	-49.598991
1718.750000	-48.571987
1734.375000	-46.466896
1750.000000	-43.216343
1765.625000	-38.968388
1781.250000	-35.734943
1796.875000	-36.434055
1812.500000	-40.264019
1828.125000	-43.837448
1843.750000	-45.944012
1859.375000	-47.279705
1875.000000	-48.222496
1890.625000	-48.403542
1906.250000	-47.988884
1921.875000	-47.590549
1937.500000	-46.430702
1953.125000	-44.725590
1968.750000	-42.047112
1984.375000	-37.973827
2000.000000	-34.213799
2015.625000	-33.780697
2031.250000	-37.169159
2046.875000	-40.774235
2062.500000	-43.169598
2078.125000	-44.605545
2093.750000	-45.238064
2109.375000	-45.461475
2125.000000	-45.746677
2140.625000	-45.337696
2156.250000	-44.265652
2171.875000	-42.731247
2187.500000	-40.503635
2203.125000	-36.500965
2218.750000	-32.053921
2234.375000	-30.897373
2250.000000	-33.756981
2265.625000	-37.468342
2281.250000	-39.783237
2296.875000	-41.513672
2312.500000	-42.840015
2328.125000	-43.316082
2343.750000	-43.413013
2359.375000	-42.881912
2375.000000	-42.020210
2390.625000	-40.672237
2406.250000	-38.252697
2421.875000	-35.155144
2437.500000	-31.462336
2453.125000	-29.182703
2468.750000	-30.591919
2484.375000	-34.169750
2500.000000	-36.875492
2515.625000	-39.092659
2531.250000	-40.125565
2546.875000	-40.693741
2562.500000	-40.567261
2578.125000	-40.256176
2593.750000	-39.585651
2609.375000	-38.502388
2625.000000	-36.458088
2640.625000	-33.926914
2656.250000	-30.394453
2671.875000	-27.707369
2687.500000	-28.279362
2703.125000	-31.165359
2718.750000	-33.950142
2734.375000	-36.210190
2750.000000	-37.350563
2765.625000	-38.089474
2781.250000	-38.365082
2796.875000	-38.347439
2812.500000	-37.675983
2828.125000	-36.603844
2843.750000	-35.232368
2859.375000	-33.036343
2875.000000	-29.833481
2890.625000	-27.022938
2906.250000	-26.561550
2921.875000	-28.875166
2937.500000	-31.884167
2953.125000	-34.091217
2968.750000	-35.809288
2984.375000	-36.770660
3000.000000	-36.955490
3015.625000	-36.866779
3031.250000	-36.656555
3046.875000	-35.713032
3062.500000	-34.434639
3078.125000	-32.618481
3093.750000	-30.061337
3109.375000	-27.308798
3125.000000	-26.367453
3140.625000	-27.380081
3156.250000	-29.950907
3171.875000	-32.775341
3187.500000	-34.605873
3203.125000	-35.841110
3218.750000	-36.549229
3234.375000	-36.736359
3250.000000	-36.519985
3265.625000	-35.915508
3281.250000	-35.006084
3296.875000	-33.303612
3312.500000	-30.864834
3328.125000	-28.298218
3343.750000	-26.453821
3359.375000	-27.117086
3375.000000	-29.653347
3390.625000	-32.448959
3406.250000	-34.504684
3421.875000	-35.925819
3437.500000	-36.907898
3453.125000	-37.050991
3468.750000	-37.155312
3484.375000	-36.739609
3500.000000	-35.740070
3515.625000	-34.032890
3531.250000	-32.293800
3546.875000	-29.655672
3562.500000	-27.245438
3578.125000	-27.293945
3593.750000	-29.565475
3609.375000	-32.075474
3625.000000	-34.288971
3640.625000	-36.111317
3656.250000	-36.915001
3671.875000	-37.330246
3687.500000	-37.298458
3703.125000	-37.045101
3718.750000	-36.409565
3734.375000	-35.309853
3750.000000	-33.460857
3765.625000	-30.833645
3781.250000	-28.503401
3796.875000	-27.877028
3812.500000	-29.387672
3828.125000	-31.965761
3843.750000	-34.214516
3859.375000	-35.972408
3875.000000	-37.038086
3890.625000	-37.678837
3906.250000	-37.827789
3921.875000	-37.259167
3937.500000	-36.334984
3953.125000	-35.446602
3968.750000	-33.741642
3984.375000	-31.370623
4000.000000	-29.034626
4015.625000	-28.008762
4031.250000	-29.394989
4046.875000	-31.879572
4062.500000	-34.016186
4078.125000	-35.631653
4093.750000	-36.772163
4109.375000	-37.362141
4125.000000	-37.731537
4140.625000	-37.590446
4156.250000	-36.652981
4171.875000	-35.602829
4187.500000	-33.895279
4203.125000	-31.395466
4218.750000	-29.113798
4234.375000	-28.117634
4250.000000	-29.255432
4265.625000	-31.697773
4281.250000	-33.915562
4296.875000	-35.126865
4312.500000	-36.231625
4328.125000	-36.739468
4343.750000	-36.888805
4359.375000	-36.721218
4375.000000	-36.189701
4390.625000	-34.926376
4406.250000	-33.568413
4421.875000	-31.491718
4437.500000	-29.598896
4453.125000	-28.513763
4468.750000	-28.978867
4484.375000	-30.865360
4500.000000	-32.704697
4515.625000	-34.074287
4531.250000	-35.155518
4546.875000	-35.634758
4562.500000	-35.654308
4578.125000	-35.452652
4593.750000	-34.823997
4609.375000	-33.730175
4625.000000	-32.530731
4640.625000	-30.981934
4656.250000	-29.593710
4671.875000	-28.850660
4687.500000	-29.159422
4703.125000	-30.326685
4718.750000	-31.843390
4734.375000	-32.933262
4750.000000	-33.812874
4765.625000	-34.291592
4781.250000	-34.102852
4796.875000	-34.039230
4812.500000	-33.465034
4828.125000	-32.314915
4843.750000	-31.039505
4859.375000	-29.898838
4875.000000	-28.864185
4890.625000	-28.329649
4906.250000	-28.757315
4921.875000	-29.608261
4937.500000	-30.067709
4953.125000	-30.833614
4968.750000	-31.353224
4984.375000	-32.015732
5000.000000	-31.893511
5015.625000	-31.745508
5031.250000	-31.292006
5046.875000	-31.045763
5062.500000	-30.554914
5078.125000	-29.927839
5093.750000	-29.478848
5109.375000	-29.065453
5125.000000	-29.044586
5140.625000	-28.944410
5156.250000	-29.289095
5171.875000	-29.386789
5187.500000	-29.576729
5203.125000	-29.960714
5218.750000	-30.167696
5234.375000	-30.470308
5250.000000	-31.096033
5265.625000	-31.215939
5281.250000	-31.523943
5296.875000	-31.691832
5312.500000	-31.549593
5328.125000	-31.182074
5343.750000	-30.665192
5359.375000	-30.047888
5375.000000	-29.678968
5390.625000	-29.562727
5406.250000	-29.605961
5421.875000	-30.418612
5437.500000	-31.512167
5453.125000	-32.358521
5468.750000	-33.647224
5484.375000	-34.181919
5500.000000	-34.670300
5515.625000	-34.523876
5531.250000	-34.351585
5546.875000	-34.136860
5562.500000	-33.384846
5578.125000	-32.098633
5593.750000	-31.014969
5609.375000	-30.563854
5625.000000	-30.846937
5640.625000	-32.189915
5656.250000	-33.655853
5671.875000	-35.041634
5687.500000	-36.031818
5703.125000	-36.726368
5718.750000	-37.127274
5734.375000	-37.181156
5750.000000	-37.102524
5765.625000	-36.475433
5781.250000	-35.422283
5796.875000	-33.951645
5812.500000	-32.917061
5828.125000	-32.580833
5843.750000	-33.121170
5859.375000	-34.208843
5875.000000	-35.738865
5890.625000	-37.541428
5906.250000	-38.345036
5921.875000	-39.067608
5937.500000	-39.733967
5953.125000	-39.738926
5968.750000	-39.642818
5984.375000	-38.949684
6000.000000	-37.867706
6015.625000	-36.371960
6031.250000	-35.296314
6046.875000	-34.449825
6062.500000	-34.768272
6078.125000	-36.307827
6093.750000	-37.901794
6109.375000	-39.300709
6125.000000	-40.671417
6140.625000	-41.849148
6156.250000	-42.317589
6171.875000	-42.282951
6187.500000	-42.141674
6203.125000	-41.371639
6218.750000	-40.654766
6234.375000	-39.217442
6250.000000	-37.669819
6265.625000	-36.974533
6281.250000	-37.085152
6296.875000	-38.134392
6312.500000	-40.123775
6328.125000	-41.801167
6343.750000	-43.080212
6359.375000	-43.905979
6375.000000	-44.474438
6390.625000	-44.842091
6406.250000	-44.800220
6421.875000	-44.202675
6437.500000	-43.450016
6453.125000	-42.258846
6468.750000	-40.787201
6484.375000	-39.902481
6500.000000	-39.760132
6515.625000	-40.862698
6531.250000	-42.843910
6546.875000	-44.799767
6562.500000	-46.117790
6578.125000	-47.217545
6593.750000	-47.963013
6609.375000	-48.512196
6625.000000	-48.733158
6640.625000	-48.190792
6656.250000	-47.431770
6671.875000	-46.521004
6687.500000	-45.266331
6703.125000	-44.193108
6718.750000	-44.202454
6734.375000	-45.269939
6750.000000	-46.809601
6765.625000	-48.357227
6781.250000	-50.178963
6796.875000	-51.170738
6812.500000	-52.283131
6828.125000	-52.749821
6843.750000	-53.159115
6859.375000	-53.056351
6875.000000	-52.615269
6890.625000	-51.718880
6906.250000	-50.305767
6921.875000	-49.266994
6937.500000	-49.167194
6953.125000	-50.437698
6968.750000	-52.160297
6984.375000	-54.144749
7000.000000	-55.916065
7015.625000	-57.410004
7031.250000	-58.415653
7046.875000	-58.934170
7062.500000	-59.500767
7078.125000	-59.733421
7093.750000	-59.568794
7109.375000	-58.961002
7125.000000	-57.993988
7140.625000	-56.971272
7156.250000	-56.525692
7171.875000	-57.675587
7187.500000	-59.393105
7203.125000	-61.364101
7218.750000	-63.482300
7234.375000	-65.341484
7250.000000	-66.583778
7265.625000	-67.592285
7281.250000	-68.400665
7296.875000	-68.638618
7312.500000	-68.692650
7328.125000	-68.157257
7343.750000	-67.808174
7359.375000	-67.129631
7375.000000	-66.858887
7390.625000	-67.666893
7406.250000	-69.295753
7421.875000	-71.654678
7437.500000	-73.942825
7453.125000	-75.844894
7468.750000	-77.545944
7484.375000	-78.964470
7500.000000	-79.885201
7515.625000	-80.685654
7531.250000	-81.336830
7546.875000	-81.731117
7562.500000	-81.706230
7578.125000	-81.772163
7593.750000	-82.289551
7609.375000	-83.652748
7625.000000	-86.161392
7640.625000	-89.390686
7656.250000	-92.653893
7671.875000	-95.366272
7687.500000	-98.234306
7703.125000	-100.700371
7718.750000	-102.915649
7734.375000	-105.208702
7750.000000	-107.483810
7765.625000	-110.020775
7781.250000	-112.514954
7796.875000	-115.441460
7812.500000	-119.224243
7828.125000	-124.124130
7843.750000	-129.674866
7859.375000	-135.833862
7875.000000	-142.335129
7890.625000	-147.610428
7906.250000	-150.801483
7921.875000	-151.839035
7937.500000	-152.143723
7953.125000	-152.260452
7968.750000	-152.367020
7984.375000	-152.361984
