Frequency (Hz)	Level (dB)
15.625000	-75.178070
31.250000	-71.760719
46.875000	-69.287506
62.500000	-67.593506
78.125000	-67.351189
93.750000	-65.157364
109.375000	-57.335197
125.000000	-54.203739
140.625000	-52.963295
156.250000	-53.669743
171.875000	-58.693962
187.500000	-62.047520
203.125000	-63.098545
218.750000	-62.882229
234.375000	-62.023552
250.000000	-59.614647
265.625000	-55.273190
281.250000	-51.529037
296.875000	-52.484856
312.500000	-56.776234
328.125000	-59.489204
343.750000	-61.121563
359.375000	-61.553940
375.000000	-60.624771
390.625000	-58.402378
406.250000	-54.103050
421.875000	-50.032398
437.500000	-50.488174
453.125000	-54.880516
468.750000	-58.137894
484.375000	-59.946548
500.000000	-60.257465
515.625000	-59.654301
531.250000	-57.266895
546.875000	-52.368656
562.500000	-48.221279
578.125000	-48.658684
593.750000	-53.373749
609.375000	-57.463493
625.000000	-59.406303
640.625000	-59.716766
656.250000	-58.961853
671.875000	-56.568165
687.500000	-51.718269
703.125000	-46.306309
718.750000	-46.501762
734.375000	-51.941490
750.000000	-56.181366
765.625000	-58.018021
781.250000	-58.625103
796.875000	-57.691631
812.500000	-55.388355
828.125000	-51.331726
843.750000	-45.811275
859.375000	-45.465946
875.000000	-50.698101
890.625000	-55.304428
906.250000	-56.844517
921.875000	-57.207649
937.500000	-56.580135
953.125000	-54.382965
968.750000	-49.567711
984.375000	-43.713642
1000.000000	-43.263409
1015.625000	-48.579746
1031.250000	-53.563805
1046.875000	-55.454472
1062.500000	-56.201645
1078.125000	-55.469994
1093.750000	-52.890179
1109.375000	-48.409786
1125.000000	-43.025974
1140.625000	-42.403820
1156.250000	-47.484474
1171.875000	-52.701859
1187.500000	-54.774086
1203.125000	-55.471352
1218.750000	-54.689045
1234.375000	-52.336552
1250.000000	-47.656719
1265.625000	-41.418293
1281.250000	-40.744102
1296.875000	-46.198311
1312.500000	-51.319134
1328.125000	-53.132347
1343.750000	-53.748039
1359.375000	-53.069843
1375.000000	-51.106976
1390.625000	-46.147697
1406.250000	-39.517174
1421.875000	-38.472298
1437.500000	-43.924206
1453.125000	-49.147240
1468.750000	-51.244461
1484.375000	-51.730045
1500.000000	-50.814716
1515.625000	-48.738529
1531.250000	-44.134583
1546.875000	-38.014526
1562.500000	-37.223984
1578.125000	-42.079269
1593.750000	-46.774048
1609.375000	-48.950478
1625.000000	-49.440716
1640.625000	-48.644505
1656.250000	-46.658199
1671.875000	-41.884422
1687.500000	-35.460571
1703.125000	-34.347805
1718.750000	-39.675106
1734.375000	-44.758026
1750.000000	-46.614075
1765.625000	-46.995270
1781.250000	-46.384911
1796.875000	-43.840797
1812.500000	-39.286926
1828.125000	-33.222118
1843.750000	-32.188141
1859.375000	-36.978947
1875.000000	-41.919052
1890.625000	-43.671680
1906.250000	-43.893459
1921.875000	-43.307911
1937.500000	-41.221909
1953.125000	-36.613014
1968.750000	-31.248968
1984.375000	-30.521212
2000.000000	-34.861210
2015.625000	-39.181934
2031.250000	-41.064037
2046.875000	-41.405067
2062.500000	-40.590454
2078.125000	-38.506996
2093.750000	-34.068821
2109.375000	-29.700455
2125.000000	-29.156340
2140.625000	-32.794048
2156.250000	-36.645500
2171.875000	-38.535088
2187.500000	-39.168602
2203.125000	-38.098232
2218.750000	-35.927498
2234.375000	-32.963486
2250.000000	-29.509224
2265.625000	-28.356215
2281.250000	-30.754438
2296.875000	-34.146793
2312.500000	-36.413952
2328.125000	-37.048943
2343.750000	-36.743801
2359.375000	-35.355968
2375.000000	-32.759026
2390.625000	-29.238846
2406.250000	-27.661127
2421.875000	-29.477264
2437.500000	-32.944851
2453.125000	-35.305855
2468.750000	-36.223675
2484.375000	-36.216408
2500.000000	-35.218319
2515.625000	-33.224472
2531.250000	-29.820066
2546.875000	-27.606489
2562.500000	-28.701307
2578.125000	-32.177895
2593.750000	-34.975822
2609.375000	-36.577961
2625.000000	-36.772068
2640.625000	-36.030132
2656.250000	-33.895111
2671.875000	-30.232368
2687.500000	-27.730207
2703.125000	-28.752214
2718.750000	-32.464439
2734.375000	-35.684982
2750.000000	-37.204449
2765.625000	-37.534424
2781.250000	-36.719524
2796.875000	-34.671692
2812.500000	-30.650284
2828.125000	-27.848192
2843.750000	-29.000208
2859.375000	-33.051426
2875.000000	-36.335865
2890.625000	-37.733562
2906.250000	-37.895233
2921.875000	-37.174820
2937.500000	-35.038948
2953.125000	-31.474649
2968.750000	-28.867550
2984.375000	-29.885681
3000.000000	-33.500183
3015.625000	-36.322308
3031.250000	-38.025772
3046.875000	-38.170650
3062.500000	-37.424923
3078.125000	-35.459961
3093.750000	-31.865150
3109.375000	-29.054466
3125.000000	-30.073219
3140.625000	-33.411743
3156.250000	-36.110573
3171.875000	-37.817387
3187.500000	-38.251423
3203.125000	-37.504753
3218.750000	-35.556896
3234.375000	-32.131996
3250.000000	-29.532789
3265.625000	-30.008299
3281.250000	-33.032520
3296.875000	-35.784229
3312.500000	-37.163059
3328.125000	-37.704338
3343.750000	-36.925064
3359.375000	-34.980801
3375.000000	-31.902325
3390.625000	-29.374907
3406.250000	-29.445667
3421.875000	-32.189999
3437.500000	-35.175751
3453.125000	-36.479458
3468.750000	-36.976433
3484.375000	-36.307804
3500.000000	-34.216167
3515.625000	-31.231466
3531.250000	-28.666393
3546.875000	-28.819466
3562.500000	-31.168013
3578.125000	-33.673370
3593.750000	-35.106693
3609.375000	-35.274487
3625.000000	-34.707176
3640.625000	-33.266010
3656.250000	-30.416092
3671.875000	-27.776941
3687.500000	-27.311810
3703.125000	-29.451859
3718.750000	-32.120743
3734.375000	-33.712822
3750.000000	-34.374043
3765.625000	-33.777500
3781.250000	-32.256073
3796.875000	-29.702637
3812.500000	-27.320068
3828.125000	-26.740171
3843.750000	-28.113764
3859.375000	-30.321049
3875.000000	-31.796249
3890.625000	-32.472992
3906.250000	-32.349377
3921.875000	-30.906370
3937.500000	-29.001553
3953.125000	-27.386627
3968.750000	-26.431919
3984.375000	-27.158943
4000.000000	-28.856462
4015.625000	-30.372654
4031.250000	-31.444193
4046.875000	-31.820395
4062.500000	-31.405216
4078.125000	-30.165136
4093.750000	-27.982498
4109.375000	-26.143463
4125.000000	-26.433601
4140.625000	-28.409882
4156.250000	-30.598133
4171.875000	-32.178337
4187.500000	-32.928761
4203.125000	-32.456593
4218.750000	-31.168152
4234.375000	-28.773634
4250.000000	-26.336843
4265.625000	-26.014412
4281.250000	-28.426409
4296.875000	-31.266880
4312.500000	-33.318951
4328.125000	-34.381439
4343.750000	-34.125172
4359.375000	-33.010883
4375.000000	-30.183657
4390.625000	-26.565487
4406.250000	-26.023058
4421.875000	-28.751245
4437.500000	-32.388191
4453.125000	-34.745018
4468.750000	-35.669205
4484.375000	-35.796719
4500.000000	-34.252880
4515.625000	-31.081026
4531.250000	-27.128948
4546.875000	-26.302288
4562.500000	-29.528000
4578.125000	-33.596622
4593.750000	-35.984367
4609.375000	-36.817856
4625.000000	-36.735348
4640.625000	-35.272251
4656.250000	-31.939945
4671.875000	-27.686201
4687.500000	-27.011469
4703.125000	-30.653471
4718.750000	-35.114532
4734.375000	-37.315174
4750.000000	-38.096371
4765.625000	-37.789326
4781.250000	-35.800747
4796.875000	-32.527809
4812.500000	-27.888651
4828.125000	-27.072607
4843.750000	-30.841417
4859.375000	-35.165947
4875.000000	-37.336781
4890.625000	-38.057018
4906.250000	-37.928612
4921.875000	-36.128262
4937.500000	-32.085453
4953.125000	-27.590244
4968.750000	-27.220894
4984.375000	-31.537899
5000.000000	-35.718723
5015.625000	-37.658905
5031.250000	-38.424252
5046.875000	-38.050613
5062.500000	-36.013878
5078.125000	-32.170906
5093.750000	-27.882593
5109.375000	-27.578220
5125.000000	-31.527029
5140.625000	-35.435532
5156.250000	-37.412422
5171.875000	-37.888939
5187.500000	-37.082008
5203.125000	-35.127056
5218.750000	-31.218996
5234.375000	-27.259857
5250.000000	-27.398056
5265.625000	-30.975576
5281.250000	-34.495636
5296.875000	-36.557106
5312.500000	-36.984314
5328.125000	-36.012836
5343.750000	-33.933926
5359.375000	-30.345606
5375.000000	-26.441366
5390.625000	-26.601122
5406.250000	-30.326345
5421.875000	-33.569733
5437.500000	-35.251404
5453.125000	-35.245335
5468.750000	-34.606918
5484.375000	-32.321873
5500.000000	-28.468462
5515.625000	-25.391113
5531.250000	-25.947985
5546.875000	-29.392454
5562.500000	-32.167458
5578.125000	-33.205688
5593.750000	-33.020630
5609.375000	-31.748226
5625.000000	-29.249578
5640.625000	-26.334373
5656.250000	-24.829172
5671.875000	-26.261814
5687.500000	-28.661373
5703.125000	-29.939373
5718.750000	-30.166862
5734.375000	-29.672405
5750.000000	-28.552677
5765.625000	-26.994219
5781.250000	-25.842627
5796.875000	-25.888395
5812.500000	-26.857340
5828.125000	-27.802715
5843.750000	-28.118040
5859.375000	-28.056540
5875.000000	-28.449284
5890.625000	-28.828951
5906.250000	-29.060368
5921.875000	-29.505535
5937.500000	-29.682211
5953.125000	-29.074587
5968.750000	-27.886354
5984.375000	-27.548998
6000.000000	-29.185909
6015.625000	-31.212217
6031.250000	-33.000385
6046.875000	-33.995026
6062.500000	-34.000103
6078.125000	-33.206852
6093.750000	-31.103979
6109.375000	-29.010050
6125.000000	-29.699911
6140.625000	-33.009541
6156.250000	-36.046261
6171.875000	-37.596977
6187.500000	-38.078896
6203.125000	-37.707317
6218.750000	-36.486320
6234.375000	-34.188084
6250.000000	-32.744743
6265.625000	-33.226711
6281.250000	-36.016449
6296.875000	-39.199203
6312.500000	-41.248608
6328.125000	-41.811527
6343.750000	-41.207775
6359.375000	-39.625046
6375.000000	-36.985741
6390.625000	-35.529877
6406.250000	-36.476765
6421.875000	-39.354317
6437.500000	-42.408619
6453.125000	-44.559208
6468.750000	-45.078716
6484.375000	-44.532364
6500.000000	-42.697227
6515.625000	-39.718483
6531.250000	-38.111755
6546.875000	-39.802731
6562.500000	-42.828247
6578.125000	-45.604733
6593.750000	-47.349159
6609.375000	-48.322407
6625.000000	-48.285110
6640.625000	-46.671337
6656.250000	-44.237587
6671.875000	-42.102329
6687.500000	-42.399673
6703.125000	-45.856438
6718.750000	-49.898949
6734.375000	-51.979210
6750.000000	-52.444847
6765.625000	-51.911945
6781.250000	-50.465023
6796.875000	-47.619007
6812.500000	-45.305317
6828.125000	-45.958908
6843.750000	-49.310616
6859.375000	-52.679333
6875.000000	-55.055767
6890.625000	-56.345329
6906.250000	-56.028259
6921.875000	-54.620525
6937.500000	-52.206295
6953.125000	-49.366310
6968.750000	-49.672874
6984.375000	-53.892437
7000.000000	-57.805424
7015.625000	-60.152157
7031.250000	-61.118889
7046.875000	-61.046509
7062.500000	-60.241226
7078.125000	-58.003216
7093.750000	-55.551384
7109.375000	-55.596542
7125.000000	-59.157196
7140.625000	-63.092133
7156.250000	-65.627037
7171.875000	-67.475899
7187.500000	-67.752617
7203.125000	-66.873871
7218.750000	-64.875420
7234.375000	-61.947296
7250.000000	-61.539371
7265.625000	-65.404488
7281.250000	-70.074936
7296.875000	-72.866188
7312.500000	-74.716957
7328.125000	-74.997383
7343.750000	-74.644554
7359.375000	-72.479797
7375.000000	-69.852051
7390.625000	-69.656265
7406.250000	-72.641869
7421.875000	-77.292244
7437.500000	-80.110893
7453.125000	-81.662926
7468.750000	-82.520599
7484.375000	-82.318878
7500.000000	-80.980774
7515.625000	-77.707512
7531.250000	-76.548637
7546.875000	-79.476959
7562.500000	-83.242065
7578.125000	-85.908516
7593.750000	-87.075447
7609.375000	-88.463020
7625.000000	-89.627304
7640.625000	-90.056328
7656.250000	-87.464439
7671.875000	-86.477402
7687.500000	-89.662460
7703.125000	-94.179070
7718.750000	-98.370537
7734.375000	-101.733437
7750.000000	-104.799263
7765.625000	-108.274689
7781.250000	-111.702194
7796.875000	-113.426010
7812.500000	-113.774796
7828.125000	-117.685555
7843.750000	-124.907051
7859.375000	-131.964920
7875.000000	-138.668030
7890.625000	-144.150116
7906.250000	-147.814819
7921.875000	-149.422577
7937.500000	-149.640060
7953.125000	-149.759506
7968.750000	-149.783432
7984.375000	-149.844070
