Frequency (Hz)	Level (dB)
15.625000	-72.350067
31.250000	-68.939354
46.875000	-66.200951
62.500000	-64.480011
78.125000	-65.887558
93.750000	-66.942368
109.375000	-67.426575
125.000000	-67.868073
140.625000	-68.393143
156.250000	-68.841057
171.875000	-68.889771
187.500000	-69.192070
203.125000	-69.490021
218.750000	-69.738113
234.375000	-69.759506
250.000000	-69.827438
265.625000	-69.965614
281.250000	-70.345001
296.875000	-70.517479
312.500000	-70.409859
328.125000	-70.267319
343.750000	-70.419029
359.375000	-70.392303
375.000000	-70.177185
390.625000	-70.161568
406.250000	-70.243805
421.875000	-70.391266
437.500000	-69.939163
453.125000	-69.510468
468.750000	-69.158409
484.375000	-68.856010
500.000000	-68.490501
515.625000	-68.441444
531.250000	-67.941475
546.875000	-67.215782
562.500000	-66.693237
578.125000	-66.281471
593.750000	-65.889168
609.375000	-65.489151
625.000000	-65.015228
640.625000	-64.099525
656.250000	-63.095570
671.875000	-61.932091
687.500000	-60.681911
703.125000	-59.246174
718.750000	-57.996902
734.375000	-56.260223
750.000000	-54.283646
765.625000	-51.908485
781.250000	-50.342300
796.875000	-49.460640
812.500000	-49.873238
828.125000	-51.445686
843.750000	-53.197609
859.375000	-54.976536
875.000000	-56.557026
890.625000	-57.822021
906.250000	-58.668869
921.875000	-59.581287
937.500000	-60.315670
953.125000	-61.001114
968.750000	-61.480732
984.375000	-62.245274
1000.000000	-62.626339
1015.625000	-62.699982
1031.250000	-63.136234
1046.875000	-63.303089
1062.500000	-63.532455
1078.125000	-63.716511
1093.750000	-63.481380
1109.375000	-63.378330
1125.000000	-63.338276
1140.625000	-63.411263
1156.250000	-63.782963
1171.875000	-63.820534
1187.500000	-64.035446
1203.125000	-64.104065
1218.750000	-63.945644
1234.375000	-63.567341
1250.000000	-63.001179
1265.625000	-62.634766
1281.250000	-62.318619
1296.875000	-62.092457
1312.500000	-61.497623
1328.125000	-60.928547
1343.750000	-60.310265
1359.375000	-59.708633
1375.000000	-58.974461
1390.625000	-57.967632
1406.250000	-56.861324
1421.875000	-55.886795
1437.500000	-54.654865
1453.125000	-53.358555
1468.750000	-51.897675
1484.375000	-50.334793
1500.000000	-48.920185
1515.625000	-48.311615
1531.250000	-47.770481
1546.875000	-47.575027
1562.500000	-47.735123
1578.125000	-48.249825
1593.750000	-49.067249
1609.375000	-50.378704
1625.000000	-51.765903
1640.625000	-53.020500
1656.250000	-54.019939
1671.875000	-55.099274
1687.500000	-55.856468
1703.125000	-56.593410
1718.750000	-57.388580
1734.375000	-57.754356
1750.000000	-57.964405
1765.625000	-58.309635
1781.250000	-58.864742
1796.875000	-58.713013
1812.500000	-58.690540
1828.125000	-58.800419
1843.750000	-58.867138
1859.375000	-58.969852
1875.000000	-59.188705
1890.625000	-59.065292
1906.250000	-58.736790
1921.875000	-58.808636
1937.500000	-58.616577
1953.125000	-58.390133
1968.750000	-58.208950
1984.375000	-57.821846
2000.000000	-57.496990
2015.625000	-57.024704
2031.250000	-56.478203
2046.875000	-55.903103
2062.500000	-55.334053
2078.125000	-54.612644
2093.750000	-53.701340
2109.375000	-52.830830
2125.000000	-52.151772
2140.625000	-51.100605
2156.250000	-49.880802
2171.875000	-48.591396
2187.500000	-47.156574
2203.125000	-45.271385
2218.750000	-44.149544
2234.375000	-43.862667
2250.000000	-43.905014
2265.625000	-43.524830
2281.250000	-43.150890
2296.875000	-43.397255
2312.500000	-44.124413
2328.125000	-44.661362
2343.750000	-45.485958
2359.375000	-46.611294
2375.000000	-47.735306
2390.625000	-48.980091
2406.250000	-49.734058
2421.875000	-50.446842
2437.500000	-51.269466
2453.125000	-51.765610
2468.750000	-52.311314
2484.375000	-52.668938
2500.000000	-52.890865
2515.625000	-53.492664
2531.250000	-53.662254
2546.875000	-53.848209
2562.500000	-53.747314
2578.125000	-53.813499
2593.750000	-53.925446
2609.375000	-54.060047
2625.000000	-53.889801
2640.625000	-53.864380
2656.250000	-53.873180
2671.875000	-53.579102
2687.500000	-53.404613
2703.125000	-53.014709
2718.750000	-52.654022
2734.375000	-52.521202
2750.000000	-51.970882
2765.625000	-51.552406
2781.250000	-51.041275
2796.875000	-50.570774
2812.500000	-49.875885
2828.125000	-49.083305
2843.750000	-48.476269
2859.375000	-47.722805
2875.000000	-46.413078
2890.625000	-45.132416
2906.250000	-43.722904
2921.875000	-42.779270
2937.500000	-41.814789
2953.125000	-41.128422
2968.750000	-40.706364
2984.375000	-40.427002
3000.000000	-40.147190
3015.625000	-39.997204
3031.250000	-40.125607
3046.875000	-40.077782
3062.500000	-40.503735
3078.125000	-41.116943
3093.750000	-41.976681
3109.375000	-42.683086
3125.000000	-43.641567
3140.625000	-44.278809
3156.250000	-45.046967
3171.875000	-46.210926
3187.500000	-47.090824
3203.125000	-47.703396
3218.750000	-48.304337
3234.375000	-48.687191
3250.000000	-49.020454
3265.625000	-49.440826
3281.250000	-49.832031
3296.875000	-49.974903
3312.500000	-50.095070
3328.125000	-50.370907
3343.750000	-50.432648
3359.375000	-50.577271
3375.000000	-50.577171
3390.625000	-50.726719
3406.250000	-50.647144
3421.875000	-50.673347
3437.500000	-50.691547
3453.125000	-50.264996
3468.750000	-50.250488
3484.375000	-50.025688
3500.000000	-49.649158
3515.625000	-48.975899
3531.250000	-48.886311
3546.875000	-48.587765
3562.500000	-47.844254
3578.125000	-47.375721
3593.750000	-46.509857
3609.375000	-45.408367
3625.000000	-44.634483
3640.625000	-43.716526
3656.250000	-42.517765
3671.875000	-41.503143
3687.500000	-40.792763
3703.125000	-40.578461
3718.750000	-40.312527
3734.375000	-40.498611
3750.000000	-40.759762
3765.625000	-40.698185
3781.250000	-40.830257
3796.875000	-41.104912
3812.500000	-40.969757
3828.125000	-40.915958
3843.750000	-41.372871
3859.375000	-42.112869
3875.000000	-43.184071
3890.625000	-44.376713
3906.250000	-45.641121
3921.875000	-46.430687
3937.500000	-46.976738
3953.125000	-48.140507
3968.750000	-49.254330
3984.375000	-49.861362
4000.000000	-50.525200
4015.625000	-50.836529
4031.250000	-51.423409
4046.875000	-51.785686
4062.500000	-52.120892
4078.125000	-52.412151
4093.750000	-52.764221
4109.375000	-52.926903
4125.000000	-53.267231
4140.625000	-53.481689
4156.250000	-53.274250
4171.875000	-53.312443
4187.500000	-53.260582
4203.125000	-52.902195
4218.750000	-52.519547
4234.375000	-52.366207
4250.000000	-52.374893
4265.625000	-52.396412
4281.250000	-52.034992
4296.875000	-51.168354
4312.500000	-50.515221
4328.125000	-49.865921
4343.750000	-49.354847
4359.375000	-48.611450
4375.000000	-47.795120
4390.625000	-46.578270
4406.250000	-45.925884
4421.875000	-45.090008
4437.500000	-44.868229
4453.125000	-44.795269
4468.750000	-44.367229
4484.375000	-44.586494
4500.000000	-44.692120
4515.625000	-44.800327
4531.250000	-45.047806
4546.875000	-45.094006
4562.500000	-45.192062
4578.125000	-45.523582
4593.750000	-45.791409
4609.375000	-46.042725
4625.000000	-46.576359
4640.625000	-47.316715
4656.250000	-48.363842
4671.875000	-49.512318
4687.500000	-50.342724
4703.125000	-51.325359
4718.750000	-52.264542
4734.375000	-52.900215
4750.000000	-53.660145
4765.625000	-54.342525
4781.250000	-54.539703
4796.875000	-55.084301
4812.500000	-55.558765
4828.125000	-55.604492
4843.750000	-55.629227
4859.375000	-55.871635
4875.000000	-56.060188
4890.625000	-56.108658
4906.250000	-56.417210
4921.875000	-56.524715
4937.500000	-56.013512
4953.125000	-55.909767
4968.750000	-55.770309
4984.375000	-55.904922
5000.000000	-55.368385
5015.625000	-54.945564
5031.250000	-54.461414
5046.875000	-54.175041
5062.500000	-53.732594
5078.125000	-52.861958
5093.750000	-51.704552
5109.375000	-50.562008
5125.000000	-50.032978
5140.625000	-49.163383
5156.250000	-48.729477
5171.875000	-48.416756
5187.500000	-48.143589
5203.125000	-48.194218
5218.750000	-48.046741
5234.375000	-47.950260
5250.000000	-48.397388
5265.625000	-48.481518
5281.250000	-48.763248
5296.875000	-48.864372
5312.500000	-48.924908
5328.125000	-49.041798
5343.750000	-49.217403
5359.375000	-49.357231
5375.000000	-49.833546
5390.625000	-50.129696
5406.250000	-50.466991
5421.875000	-51.551010
5437.500000	-52.440174
5453.125000	-52.925198
5468.750000	-54.117523
5484.375000	-54.605511
5500.000000	-55.522762
5515.625000	-55.976982
5531.250000	-56.429771
5546.875000	-57.244949
5562.500000	-57.675579
5578.125000	-57.757339
5593.750000	-57.928665
5609.375000	-58.116493
5625.000000	-58.098206
5640.625000	-58.372761
5656.250000	-58.331470
5671.875000	-58.396950
5687.500000	-58.185520
5703.125000	-57.926529
5718.750000	-57.771866
5734.375000	-57.631992
5750.000000	-57.486179
5765.625000	-57.034550
5781.250000	-56.452835
5796.875000	-55.397354
5812.500000	-54.957676
5828.125000	-54.455704
5843.750000	-53.717724
5859.375000	-52.722527
5875.000000	-52.050755
5890.625000	-52.229454
5906.250000	-51.768456
5921.875000	-51.199200
5937.500000	-51.265030
5953.125000	-51.275894
5968.750000	-51.456715
5984.375000	-51.507595
6000.000000	-51.375252
6015.625000	-51.326130
6031.250000	-51.710587
6046.875000	-51.668869
6062.500000	-51.879967
6078.125000	-52.029976
6093.750000	-51.956810
6109.375000	-52.136692
6125.000000	-52.823624
6140.625000	-53.597794
6156.250000	-53.902367
6171.875000	-54.023220
6187.500000	-54.984997
6203.125000	-55.289707
6218.750000	-56.271935
6234.375000	-56.992977
6250.000000	-57.640896
6265.625000	-58.538303
6281.250000	-59.056499
6296.875000	-59.502270
6312.500000	-60.443684
6328.125000	-60.742287
6343.750000	-60.929058
6359.375000	-61.133587
6375.000000	-61.346840
6390.625000	-61.623268
6406.250000	-61.797081
6421.875000	-61.762413
6437.500000	-61.908714
6453.125000	-61.906975
6468.750000	-61.703072
6484.375000	-61.738159
6500.000000	-61.271416
6515.625000	-60.949860
6531.250000	-60.713581
6546.875000	-60.470020
6562.500000	-59.639465
6578.125000	-59.113449
6593.750000	-58.782681
6609.375000	-58.526909
6625.000000	-58.459026
6640.625000	-58.385990
6656.250000	-58.184532
6671.875000	-58.373531
6687.500000	-58.718037
6703.125000	-59.056892
6718.750000	-59.481529
6734.375000	-59.712662
6750.000000	-59.676140
6765.625000	-59.791698
6781.250000	-60.339680
6796.875000	-60.616188
6812.500000	-61.217781
6828.125000	-61.466976
6843.750000	-62.109787
6859.375000	-62.527084
6875.000000	-63.145164
6890.625000	-63.704624
6906.250000	-63.936550
6921.875000	-64.558609
6937.500000	-65.449059
6953.125000	-66.700859
6968.750000	-67.693466
6984.375000	-68.722450
7000.000000	-69.751572
7015.625000	-70.853302
7031.250000	-71.577744
7046.875000	-72.278824
7062.500000	-73.344429
7078.125000	-74.446617
7093.750000	-75.317406
7109.375000	-76.033829
7125.000000	-76.698700
7140.625000	-77.052650
7156.250000	-77.402405
7171.875000	-78.327415
7187.500000	-78.659340
7203.125000	-78.946968
7218.750000	-79.244850
7234.375000	-79.710648
7250.000000	-79.862640
7265.625000	-79.832802
7281.250000	-80.058235
7296.875000	-79.982117
7312.500000	-80.092346
7328.125000	-79.993317
7343.750000	-80.786720
7359.375000	-81.138138
7375.000000	-81.560173
7390.625000	-82.040794
7406.250000	-82.738914
7421.875000	-83.451210
7437.500000	-84.226486
7453.125000	-85.087715
7468.750000	-85.933907
7484.375000	-86.751381
7500.000000	-87.594597
7515.625000	-88.511444
7531.250000	-89.696609
7546.875000	-90.796448
7562.500000	-92.053406
7578.125000	-92.947105
7593.750000	-93.832642
7609.375000	-95.443542
7625.000000	-97.236771
7640.625000	-98.699425
7656.250000	-100.342392
7671.875000	-102.264153
7687.500000	-104.135834
7703.125000	-106.247566
7718.750000	-108.677834
7734.375000	-111.339066
7750.000000	-114.059341
7765.625000	-117.319229
7781.250000	-120.806885
7796.875000	-124.509270
7812.500000	-128.546234
7828.125000	-133.071365
7843.750000	-138.034866
7859.375000	-143.502289
7875.000000	-149.186890
7890.625000	-155.532700
7906.250000	-161.565567
7921.875000	-165.491974
7937.500000	-166.917328
7953.125000	-167.171417
7968.750000	-167.320374
7984.375000	-167.401627
